File: Data/LSVN0583_CrystalPenner.csv
Pixel,Wavelength(nm),Intensity(Counts)
1,145.5,1667
4,146.1,1647
7,146.8,1596
10,147.4,1636
13,148,1610
16,148.7,1645
19,149.3,1693
22,149.9,1692
25,150.5,1643
28,151.2,1637
31,151.8,1600
34,152.4,1633
37,153.1,1656
40,153.7,1692
43,154.3,1646
46,155,1565
49,155.6,1557
52,156.2,1625
55,156.9,1624
58,157.5,1653
61,158.1,1619
64,158.7,1687
67,159.4,1550
70,160,1675
73,160.6,1633
76,161.3,1657
79,161.9,1635
82,162.5,1671
85,163.2,1702
88,163.8,1560
91,164.4,1721
94,165.1,1618
97,165.7,1497
100,166.3,1634
103,167,1613
106,167.6,1695
109,168.2,1642
112,168.9,1677
115,169.5,1659
118,170.1,1753
121,170.8,1648
124,171.4,1709
127,172,1653
130,172.7,1659
133,173.3,1580
136,174,1633
139,174.6,1577
142,175.2,1700
145,175.9,1671
148,176.5,1701
151,177.1,1641
154,177.8,1686
157,178.4,1665
160,179,1569
163,179.7,1635
166,180.3,1615
169,181,1712
172,181.6,1566
175,182.2,1710
178,182.9,1685
181,183.5,1648
184,184.1,1689
187,184.8,1764
190,185.4,1661
193,186,1645
196,186.7,1627
199,187.3,1636
202,188,1600
205,188.6,1635
208,189.2,1636
211,189.9,1623
214,190.5,1685
217,191.2,1686
220,191.8,1569
223,192.4,1596
226,193.1,1645
229,193.7,1692
232,194.4,1616
235,195,1621
238,195.6,1553
241,196.3,1601
244,196.9,1594
247,197.6,1629
250,198.2,1705
253,198.8,1663
256,199.5,1583
259,200.1,1651
262,200.8,1625
265,201.4,1700
268,202,1597
271,202.7,1648
274,203.3,1640
277,204,1622
280,204.6,1579
283,205.2,1661
286,205.9,1613
289,206.5,1627
292,207.2,1597
295,207.8,1659
298,208.5,1570
301,209.1,1673
304,209.7,1560
307,210.4,1564
310,211,1701
313,211.7,1737
316,212.3,1715
319,213,1654
322,213.6,1607
325,214.2,1636
328,214.9,1660
331,215.5,1627
334,216.2,1680
337,216.8,1663
340,217.5,1613
343,218.1,1581
346,218.8,1617
349,219.4,1629
352,220,1697
355,220.7,1593
358,221.3,1583
361,222,1623
364,222.6,1575
367,223.3,1651
370,223.9,1743
373,224.6,1573
376,225.2,1629
379,225.9,1589
382,226.5,1569
385,227.1,1667
388,227.8,1615
391,228.4,1665
394,229.1,1606
397,229.7,1622
400,230.4,1617
403,231,1595
406,231.7,1636
409,232.3,1607
412,233,1628
415,233.6,1597
418,234.3,1585
421,234.9,1661
424,235.6,1671
427,236.2,1582
430,236.9,1639
433,237.5,1689
436,238.2,1629
439,238.8,1655
442,239.5,1639
445,240.1,1621
448,240.7,1611
451,241.4,1565
454,242,1625
457,242.7,1708
460,243.3,1676
463,244,1678
466,244.6,1685
469,245.3,1669
472,245.9,1657
475,246.6,1653
478,247.2,1623
481,247.9,1635
484,248.5,1632
487,249.2,1637
490,249.8,1587
493,250.5,1541
496,251.2,1608
499,251.8,1613
502,252.5,1669
505,253.1,1638
508,253.8,1566
511,254.4,1689
514,255.1,1637
517,255.7,1656
520,256.4,1680
523,257,1637
526,257.7,1656
529,258.3,1541
532,259,1597
535,259.6,1668
538,260.3,1652
541,260.9,1540
544,261.6,1572
547,262.2,1616
550,262.9,1626
553,263.5,1675
556,264.2,1569
559,264.9,1546
562,265.5,1545
565,266.2,1639
568,266.8,1561
571,267.5,1544
574,268.1,1541
577,268.8,1562
580,269.4,1630
583,270.1,1536
586,270.7,1583
589,271.4,1524
592,272.1,1613
595,272.7,1559
598,273.4,1661
601,274,1536
604,274.7,1581
607,275.3,1623
610,276,1633
613,276.6,1661
616,277.3,1680
619,278,1629
622,278.6,1748
625,279.3,1618
628,279.9,1545
631,280.6,1578
634,281.2,1639
637,281.9,1603
640,282.6,1607
643,283.2,1591
646,283.9,1630
649,284.5,1627
652,285.2,1644
655,285.8,1613
658,286.5,1579
661,287.2,1682
664,287.8,1570
667,288.5,1624
670,289.1,1577
673,289.8,1708
676,290.4,1636
679,291.1,1697
682,291.8,1671
685,292.4,1606
688,293.1,1548
691,293.7,1567
694,294.4,1613
697,295.1,1559
700,295.7,1553
703,296.4,1597
706,297,1616
709,297.7,1655
712,298.4,1484
715,299,1653
718,299.7,1545
721,300.3,1597
724,301,1605
727,301.7,1656
730,302.3,1581
733,303,1588
736,303.6,1517
739,304.3,1549
742,305,1606
745,305.6,1737
748,306.3,1673
751,307,1652
754,307.6,1651
757,308.3,1651
760,308.9,1697
763,309.6,1603
766,310.3,1613
769,310.9,1636
772,311.6,1720
775,312.3,1665
778,312.9,1621
781,313.6,1634
784,314.2,1685
787,314.9,1614
790,315.6,1612
793,316.2,1612
796,316.9,1647
799,317.6,1668
802,318.2,1567
805,318.9,1593
808,319.6,1618
811,320.2,1575
814,320.9,1640
817,321.5,1549
820,322.2,1569
823,322.9,1635
826,323.5,1597
829,324.2,1595
832,324.9,1590
835,325.5,1647
838,326.2,1629
841,326.9,1561
844,327.5,1568
847,328.2,1653
850,328.9,1632
853,329.5,1664
856,330.2,1557
859,330.9,1601
862,331.5,1592
865,332.2,1629
868,332.9,1653
871,333.5,1635
874,334.2,1584
877,334.9,1562
880,335.5,1568
883,336.2,1667
886,336.9,1670
889,337.5,1609
892,338.2,1728
895,338.9,1647
898,339.5,1670
901,340.2,1671
904,340.9,1632
907,341.5,1629
910,342.2,1633
913,342.9,1571
916,343.5,1585
919,344.2,1618
922,344.9,1629
925,345.6,1573
928,346.2,1619
931,346.9,1598
934,347.6,1663
937,348.2,1536
940,348.9,1617
943,349.6,1645
946,350.2,1625
949,350.9,1597
952,351.6,1591
955,352.2,1569
958,352.9,1652
961,353.6,1614
964,354.3,1627
967,354.9,1659
970,355.6,1507
973,356.3,1579
976,356.9,1666
979,357.6,1629
982,358.3,1570
985,359,1617
988,359.6,1596
991,360.3,1557
994,361,1580
997,361.6,1645
1000,362.3,1591
1003,363,1645
1006,363.7,1675
1009,364.3,1631
1012,365,1561
1015,365.7,1555
1018,366.3,1613
1021,367,1594
1024,367.7,1614
1027,368.4,1649
1030,369,1627
1033,369.7,1649
1036,370.4,1583
1039,371.1,1689
1042,371.7,1696
1045,372.4,1643
1048,373.1,1621
1051,373.8,1532
1054,374.4,1540
1057,375.1,1652
1060,375.8,1685
1063,376.4,1600
1066,377.1,1658
1069,377.8,1658
1072,378.5,1706
1075,379.1,1704
1078,379.8,1605
1081,380.5,1620
1084,381.2,1685
1087,381.8,1615
1090,382.5,1523
1093,383.2,1633
1096,383.9,1585
1099,384.5,1595
1102,385.2,1575
1105,385.9,1664
1108,386.6,1666
1111,387.3,1612
1114,387.9,1629
1117,388.6,1670
1120,389.3,1597
1123,390,1642
1126,390.6,1607
1129,391.3,1621
1132,392,1581
1135,392.7,1613
1138,393.3,1607
1141,394,1654
1144,394.7,1614
1147,395.4,1583
1150,396.1,1630
1153,396.7,1643
1156,397.4,1617
1159,398.1,1635
1162,398.8,1615
1165,399.4,1615
1168,400.1,1668
1171,400.8,1657
1174,401.5,1638
1177,402.2,1686
1180,402.8,1607
1183,403.5,1660
1186,404.2,1603
1189,404.9,1682
1192,405.6,1738
1195,406.2,1650
1198,406.9,1734
1201,407.6,1665
1204,408.3,1744
1207,409,1775
1210,409.6,1658
1213,410.3,1678
1216,411,1757
1219,411.7,1798
1222,412.4,1769
1225,413,1798
1228,413.7,1792
1231,414.4,1859
1234,415.1,1889
1237,415.8,1792
1240,416.4,1945
1243,417.1,2091
1246,417.8,2078
1249,418.5,2164
1252,419.2,2209
1255,419.8,2227
1258,420.5,2264
1261,421.2,2455
1264,421.9,2605
1267,422.6,2761
1270,423.3,2861
1273,423.9,3053
1276,424.6,3137
1279,425.3,3377
1282,426,3683
1285,426.7,3929
1288,427.3,4075
1291,428,4434
1294,428.7,4791
1297,429.4,5186
1300,430.1,5680
1303,430.8,6147
1306,431.4,6839
1309,432.1,7437
1312,432.8,8063
1315,433.5,8897
1318,434.2,9821
1321,434.9,10747
1324,435.6,11855
1327,436.2,12772
1330,436.9,14053
1333,437.6,15571
1336,438.3,17153
1339,439,18807
1342,439.7,20458
1345,440.3,22661
1348,441,25058
1351,441.7,27829
1354,442.4,30629
1357,443.1,33879
1360,443.8,36609
1363,444.5,40233
1366,445.1,44111
1369,445.8,47402
1372,446.5,51118
1375,447.2,54274
1378,447.9,57570
1381,448.6,60542
1384,449.3,62726
1387,449.9,64218
1390,450.6,65478
1393,451.3,65535
1396,452,65531
1399,452.7,64686
1402,453.4,62674
1405,454.1,60833
1408,454.8,58416
1411,455.4,55651
1414,456.1,53160
1417,456.8,50399
1420,457.5,47842
1423,458.2,45504
1426,458.9,43551
1429,459.6,41421
1432,460.3,39748
1435,460.9,38013
1438,461.6,36739
1441,462.3,35431
1444,463,34572
1447,463.7,33809
1450,464.4,32591
1453,465.1,31538
1456,465.8,30711
1459,466.5,29281
1462,467.1,28345
1465,467.8,27115
1468,468.5,25921
1471,469.2,24986
1474,469.9,23593
1477,470.6,22489
1480,471.3,21384
1483,472,20362
1486,472.7,19580
1489,473.4,18715
1492,474,18084
1495,474.7,17428
1498,475.4,16887
1501,476.1,16376
1504,476.8,15836
1507,477.5,15460
1510,478.2,15225
1513,478.9,14933
1516,479.6,14724
1519,480.3,14597
1522,481,14369
1525,481.7,14293
1528,482.3,14152
1531,483,14077
1534,483.7,14317
1537,484.4,14287
1540,485.1,14127
1543,485.8,14305
1546,486.5,14218
1549,487.2,14162
1552,487.9,14423
1555,488.6,14416
1558,489.3,14641
1561,490,14757
1564,490.7,14915
1567,491.3,15130
1570,492,15269
1573,492.7,15594
1576,493.4,16284
1579,494.1,16417
1582,494.8,16732
1585,495.5,17087
1588,496.2,17588
1591,496.9,17705
1594,497.6,18027
1597,498.3,18374
1600,499,18625
1603,499.7,18981
1606,500.4,19588
1609,501.1,20105
1612,501.8,20403
1615,502.4,20862
1618,503.1,21329
1621,503.8,21761
1624,504.5,22164
1627,505.2,22442
1630,505.9,22889
1633,506.6,23556
1636,507.3,23740
1639,508,24311
1642,508.7,24782
1645,509.4,25216
1648,510.1,25622
1651,510.8,26372
1654,511.5,26913
1657,512.2,27415
1660,512.9,27988
1663,513.6,28412
1666,514.3,29052
1669,515,29757
1672,515.7,30530
1675,516.4,31232
1678,517.1,32191
1681,517.8,32548
1684,518.5,33206
1687,519.2,33770
1690,519.9,34305
1693,520.6,34732
1696,521.2,35327
1699,521.9,35609
1702,522.6,36004
1705,523.3,36367
1708,524,36732
1711,524.7,37091
1714,525.4,37854
1717,526.1,37638
1720,526.8,37811
1723,527.5,38029
1726,528.2,38660
1729,528.9,38637
1732,529.6,39121
1735,530.3,39075
1738,531,39226
1741,531.7,39343
1744,532.4,39282
1747,533.1,39618
1750,533.8,39692
1753,534.5,40035
1756,535.2,40171
1759,535.9,40137
1762,536.6,40633
1765,537.3,40599
1768,538,40465
1771,538.7,40165
1774,539.4,40056
1777,540.1,40049
1780,540.8,40286
1783,541.5,40291
1786,542.2,40448
1789,542.9,40063
1792,543.6,40041
1795,544.3,40244
1798,545,39930
1801,545.7,39875
1804,546.4,39447
1807,547.1,39382
1810,547.8,39610
1813,548.5,39862
1816,549.2,39629
1819,549.9,39742
1822,550.6,39857
1825,551.3,39717
1828,552,39894
1831,552.8,39755
1834,553.5,39934
1837,554.2,39998
1840,554.9,39962
1843,555.6,40084
1846,556.3,40361
1849,557,40251
1852,557.7,40335
1855,558.4,40577
1858,559.1,40722
1861,559.8,40995
1864,560.5,40974
1867,561.2,41291
1870,561.9,41104
1873,562.6,41081
1876,563.3,41553
1879,564,41787
1882,564.7,41929
1885,565.4,42027
1888,566.1,41579
1891,566.8,41485
1894,567.5,41525
1897,568.2,42073
1900,568.9,42168
1903,569.6,42178
1906,570.3,41949
1909,571,42210
1912,571.7,41788
1915,572.5,41771
1918,573.2,41971
1921,573.9,41790
1924,574.6,41419
1927,575.3,41419
1930,576,41140
1933,576.7,41190
1936,577.4,40985
1939,578.1,40611
1942,578.8,40509
1945,579.5,40566
1948,580.2,39939
1951,580.9,39946
1954,581.6,39721
1957,582.3,39092
1960,583,39109
1963,583.8,38649
1966,584.5,38401
1969,585.2,38134
1972,585.9,37816
1975,586.6,37322
1978,587.3,37092
1981,588,36778
1984,588.7,36356
1987,589.4,35917
1990,590.1,35764
1993,590.8,35900
1996,591.5,35268
1999,592.2,35012
2002,592.9,34497
2005,593.7,34271
2008,594.4,34320
2011,595.1,33454
2014,595.8,33658
2017,596.5,33287
2020,597.2,32833
2023,597.9,32835
2026,598.6,32246
2029,599.3,32110
2032,600,31735
2035,600.7,31326
2038,601.4,31167
2041,602.2,30958
2044,602.9,30391
2047,603.6,30212
2050,604.3,30035
2053,605,29506
2056,605.7,29535
2059,606.4,29264
2062,607.1,28872
2065,607.8,28453
2068,608.5,28436
2071,609.3,27955
2074,610,27526
2077,610.7,27192
2080,611.4,26888
2083,612.1,26471
2086,612.8,26167
2089,613.5,25577
2092,614.2,25281
2095,614.9,24726
2098,615.7,24512
2101,616.4,24138
2104,617.1,23764
2107,617.8,23404
2110,618.5,23108
2113,619.2,22698
2116,619.9,22214
2119,620.6,21935
2122,621.3,21501
2125,622.1,21079
2128,622.8,20723
2131,623.5,20267
2134,624.2,19672
2137,624.9,19661
2140,625.6,19195
2143,626.3,18915
2146,627,18549
2149,627.8,18129
2152,628.5,17808
2155,629.2,17487
2158,629.9,17312
2161,630.6,17011
2164,631.3,16430
2167,632,16121
2170,632.7,15951
2173,633.5,15637
2176,634.2,15430
2179,634.9,15244
2182,635.6,14969
2185,636.3,14763
2188,637,14706
2191,637.7,14417
2194,638.5,14403
2197,639.2,14288
2200,639.9,14063
2203,640.6,14017
2206,641.3,13852
2209,642,13755
2212,642.7,13623
2215,643.5,13188
2218,644.2,13240
2221,644.9,12986
2224,645.6,12610
2227,646.3,12231
2230,647,12134
2233,647.7,11813
2236,648.5,11524
2239,649.2,11076
2242,649.9,10852
2245,650.6,10716
2248,651.3,10581
2251,652,10259
2254,652.8,10063
2257,653.5,9629
2260,654.2,9457
2263,654.9,9366
2266,655.6,9081
2269,656.3,8843
2272,657.1,8549
2275,657.8,8317
2278,658.5,8123
2281,659.2,7932
2284,659.9,7675
2287,660.6,7605
2290,661.4,7493
2293,662.1,7337
2296,662.8,7120
2299,663.5,7101
2302,664.2,6977
2305,664.9,6721
2308,665.7,6346
2311,666.4,6259
2314,667.1,6203
2317,667.8,6032
2320,668.5,5884
2323,669.3,5720
2326,670,5655
2329,670.7,5639
2332,671.4,5623
2335,672.1,5341
2338,672.8,5383
2341,673.6,5249
2344,674.3,5245
2347,675,4981
2350,675.7,4828
2353,676.4,4750
2356,677.2,4685
2359,677.9,4598
2362,678.6,4500
2365,679.3,4429
2368,680,4386
2371,680.8,4244
2374,681.5,4280
2377,682.2,4194
2380,682.9,4025
2383,683.6,4044
2386,684.4,3980
2389,685.1,3954
2392,685.8,3851
2395,686.5,3878
2398,687.2,3760
2401,688,3684
2404,688.7,3725
2407,689.4,3687
2410,690.1,3623
2413,690.8,3565
2416,691.6,3474
2419,692.3,3453
2422,693,3497
2425,693.7,3499
2428,694.4,3320
2431,695.2,3460
2434,695.9,3399
2437,696.6,3415
2440,697.3,3460
2443,698.1,3314
2446,698.8,3350
2449,699.5,3411
2452,700.2,3385
2455,700.9,3457
2458,701.7,3339
2461,702.4,3397
2464,703.1,3485
2467,703.8,3518
2470,704.6,3493
2473,705.3,3523
2476,706,3483
2479,706.7,3562
2482,707.4,3712
2485,708.2,3635
2488,708.9,3685
2491,709.6,3769
2494,710.3,3898
2497,711.1,3812
2500,711.8,3971
2503,712.5,4020
2506,713.2,4058
2509,714,4028
2512,714.7,4119
2515,715.4,4239
2518,716.1,4363
2521,716.8,4441
2524,717.6,4459
2527,718.3,4570
2530,719,4604
2533,719.7,4797
2536,720.5,4840
2539,721.2,4965
2542,721.9,5038
2545,722.6,5083
2548,723.4,5239
2551,724.1,5370
2554,724.8,5551
2557,725.5,5632
2560,726.3,5727
2563,727,5893
2566,727.7,5911
2569,728.4,5961
2572,729.2,6117
2575,729.9,6462
2578,730.6,6685
2581,731.3,6657
2584,732.1,6937
2587,732.8,7065
2590,733.5,7275
2593,734.3,7648
2596,735,7904
2599,735.7,7943
2602,736.4,8221
2605,737.2,8520
2608,737.9,8679
2611,738.6,9161
2614,739.3,9534
2617,740.1,9720
2620,740.8,10007
2623,741.5,10353
2626,742.2,10903
2629,743,11363
2632,743.7,11813
2635,744.4,12277
2638,745.2,12854
2641,745.9,13267
2644,746.6,13914
2647,747.3,14598
2650,748.1,15046
2653,748.8,15634
2656,749.5,16267
2659,750.2,16796
2662,751,17286
2665,751.7,17996
2668,752.4,18369
2671,753.2,18603
2674,753.9,18913
2677,754.6,19269
2680,755.3,19351
2683,756.1,19507
2686,756.8,18965
2689,757.5,18705
2692,758.3,18247
2695,759,17874
2698,759.7,17279
2701,760.4,16800
2704,761.2,16200
2707,761.9,15455
2710,762.6,14707
2713,763.4,13930
2716,764.1,13226
2719,764.8,12431
2722,765.6,11677
2725,766.3,10956
2728,767,10344
2731,767.7,9614
2734,768.5,9155
2737,769.2,8483
2740,769.9,7821
2743,770.7,7311
2746,771.4,6751
2749,772.1,6378
2752,772.9,5904
2755,773.6,5502
2758,774.3,5213
2761,775,4909
2764,775.8,4537
2767,776.5,4196
2770,777.2,4027
2773,778,3825
2776,778.7,3595
2779,779.4,3536
2782,780.2,3420
2785,780.9,3197
2788,781.6,3087
2791,782.4,2979
2794,783.1,2896
2797,783.8,2723
2800,784.6,2703
2803,785.3,2679
2806,786,2657
2809,786.8,2622
2812,787.5,2517
2815,788.2,2604
2818,788.9,2425
2821,789.7,2509
2824,790.4,2357
2827,791.1,2410
2830,791.9,2354
2833,792.6,2229
2836,793.3,2391
2839,794.1,2388
2842,794.8,2333
2845,795.5,2293
2848,796.3,2305
2851,797,2354
2854,797.7,2275
2857,798.5,2293
2860,799.2,2351
2863,799.9,2350
2866,800.7,2333
2869,801.4,2293
2872,802.1,2257
2875,802.9,2393
2878,803.6,2342
2881,804.3,2389
2884,805.1,2359
2887,805.8,2429
2890,806.6,2453
2893,807.3,2416
2896,808,2544
2899,808.8,2509
2902,809.5,2509
2905,810.2,2588
2908,811,2651
2911,811.7,2566
2914,812.4,2672
2917,813.2,2642
2920,813.9,2690
2923,814.6,2823
2926,815.4,2900
2929,816.1,2806
2932,816.8,2911
2935,817.6,2965
2938,818.3,3019
2941,819,3065
2944,819.8,3099
2947,820.5,3148
2950,821.3,3211
2953,822,3361
2956,822.7,3345
2959,823.5,3400
2962,824.2,3551
2965,824.9,3580
2968,825.7,3505
2971,826.4,3641
2974,827.1,3782
2977,827.9,3763
2980,828.6,3822
2983,829.4,4010
2986,830.1,4202
2989,830.8,4208
2992,831.6,4222
2995,832.3,4411
2998,833,4472
3001,833.8,4635
3004,834.5,4487
3007,835.3,4732
3010,836,4782
3013,836.7,4849
3016,837.5,4880
3019,838.2,4929
3022,838.9,5151
3025,839.7,5111
3028,840.4,5132
3031,841.2,5264
3034,841.9,5383
3037,842.6,5302
3040,843.4,5372
3043,844.1,5358
3046,844.8,5477
3049,845.6,5505
3052,846.3,5455
3055,847.1,5399
3058,847.8,5361
3061,848.5,5225
3064,849.3,5111
3067,850,5005
3070,850.8,4979
3073,851.5,4777
3076,852.2,4608
3079,853,4559
3082,853.7,4517
3085,854.5,4287
3088,855.2,4116
3091,855.9,4035
3094,856.7,3977
3097,857.4,3884
3100,858.1,3714
3103,858.9,3493
3106,859.6,3437
3109,860.4,3185
3112,861.1,3151
3115,861.8,3012
3118,862.6,2893
3121,863.3,2790
3124,864.1,2772
3127,864.8,2663
3130,865.6,2504
3133,866.3,2408
3136,867,2411
3139,867.8,2358
3142,868.5,2182
3145,869.3,2215
3148,870,2195
3151,870.7,2174
3154,871.5,2059
3157,872.2,2049
3160,873,2002
3163,873.7,1926
3166,874.4,1924
3169,875.2,1899
3172,875.9,1879
3175,876.7,1811
3178,877.4,1810
3181,878.2,1716
3184,878.9,1748
3187,879.6,1785
3190,880.4,1775
3193,881.1,1767
3196,881.9,1768
3199,882.6,1750
3202,883.3,1688
3205,884.1,1685
3208,884.8,1598
3211,885.6,1659
3214,886.3,1557
3217,887.1,1531
3220,887.8,1661
3223,888.5,1637
3226,889.3,1639
3229,890,1621
3232,890.8,1617
3235,891.5,1581
3238,892.3,1565
3241,893,1657
3244,893.7,1621
3247,894.5,1579
3250,895.2,1536
3253,896,1511
3256,896.7,1635
3259,897.5,1613
3262,898.2,1647
3265,899,1604
3268,899.7,1520
3271,900.4,1581
3274,901.2,1587
3277,901.9,1548
3280,902.7,1585
3283,903.4,1603
3286,904.2,1606
3289,904.9,1545
3292,905.7,1593
3295,906.4,1548
3298,907.1,1571
3301,907.9,1533
3304,908.6,1621
3307,909.4,1675
3310,910.1,1677
3313,910.9,1575
3316,911.6,1598
3319,912.4,1481
3322,913.1,1687
3325,913.8,1591
3328,914.6,1655
3331,915.3,1741
3334,916.1,1749
3337,916.8,1700
3340,917.6,1711
3343,918.3,1693
3346,919.1,1681
3349,919.8,1573
3352,920.6,1652
3355,921.3,1775
3358,922,1703
3361,922.8,1714
3364,923.5,1631
3367,924.3,1645
3370,925,1781
3373,925.8,1777
3376,926.5,1763
3379,927.3,1825
3382,928,1781
3385,928.8,1767
3388,929.5,1828
3391,930.3,1856
3394,931,1819
3397,931.8,1792
3400,932.5,1801
3403,933.2,1815
3406,934,1861
3409,934.7,1811
3412,935.5,1920
3415,936.2,1948
3418,937,1941
3421,937.7,1908
3424,938.5,1981
3427,939.2,1889
3430,940,1988
3433,940.7,2043
3436,941.5,1957
3439,942.2,1985
3442,943,2009
3445,943.7,2063
3448,944.5,1987
3451,945.2,1931
3454,946,2079
3457,946.7,2183
3460,947.5,2235
3463,948.2,2163
3466,949,2201
3469,949.7,2311
3472,950.5,2202
3475,951.2,2215
3478,951.9,2243
3481,952.7,2271
3484,953.4,2289
3487,954.2,2237
3490,954.9,2247
3493,955.7,2325
3496,956.4,2262
3499,957.2,2273
3502,957.9,2216
3505,958.7,2265
3508,959.4,2129
3511,960.2,2156
3514,960.9,2161
3517,961.7,2072
3520,962.4,2094
3523,963.2,2087
3526,963.9,2068
3529,964.7,2007
3532,965.4,2001
3535,966.2,1938
3538,966.9,1816
3541,967.7,1808
3544,968.4,1927
3547,969.2,1735
3550,969.9,1819
3553,970.7,1784
3556,971.4,1750
3559,972.2,1757
3562,972.9,1674
3565,973.7,1680
3568,974.4,1619
3571,975.2,1655
3574,975.9,1613
3577,976.7,1588
3580,977.4,1696
3583,978.2,1569
3586,979,1675
3589,979.7,1665
3592,980.5,1663
3595,981.2,1545
3598,982,1588
3601,982.7,1629
3604,983.5,1675
3607,984.2,1545
3610,985,1547
3613,985.7,1637
3616,986.5,1623
3619,987.2,1560
3622,988,1467
3625,988.7,1550
3628,989.5,1536
3631,990.2,1567
3634,991,1559
3637,991.7,1593
3640,992.5,1633
3643,993.2,1622
3646,994,1646
3648,994.5,1525